# Optical absorption spectrum of Program fragment delivered error ``Can't call method "sample_" on an undefined value at abs.template line 1.'':LUAG (Tm:Lu3Al5O12)
# assuming unity concentration per meter.  This data was part of the NASA 
# Laser Spectra Database found on the web until December of 2005 which
# was created by Pat Cross working at NASA Langley Research Center, Internal
# Operations Group, Aerospace Electronics Systems Division, Remote Sensing.
#
# The spectra was collected by BMW on  5 June 1993 and was 
# annotated on 12 March 1993.  The sample name was "" was a 9.9300
# long piece of :.   
# The incident light had unknown polarization.
#
# Spectra were recorded from 730 to 830nm
# every 0.1nm at room temperature.
#
# FILE NAME ON IBM-PC = LUAG8.SP ON MAC= P12033.03 NO_POINTS = 1001. pts DATA_INTV = .00010 _m MIN_LAMBDA = .730000 _m MIN_DATA = .53210 MAX_LAMBDA = .830000 _m MAX_DATA = .85570 SCANSPEED = 15.000000 nm/min SLITWIDTH= .20000 nmITA = 0. RESP = .500 sec ISMS = 0. DATE=93/05/06 INST = 509. ? = 0. ITHACA CORP SAMPLE 0:16:07 12-03-1993.
#
##Wavelength (nm)	Absorbance (/meter) 
730	107
730.1	102
730.2	93
730.3	2
730.4	140
730.5	83
730.6	21
730.7	1
730.8	1
730.9	1
731	88
731.1	21
731.2	1
731.3	1
731.4	265
731.5	1
731.6	26
731.7	14
731.8	48
731.9	79
732	29
732.1	153
732.2	1
732.3	72
732.4	1
732.5	1
732.6	1
732.7	1
732.8	258
732.9	119
733	1
733.1	1
733.2	1
733.3	67
733.4	36
733.5	1
733.6	1
733.7	167
733.8	1
733.9	1
734	74
734.1	46
734.2	312
734.3	259
734.4	1
734.5	53
734.6	101
734.7	1
734.8	101
734.9	1
735	55
735.1	1
735.2	77
735.3	249
735.4	39
735.5	15
735.6	118
735.7	1
735.8	1
735.9	185
736	137
736.1	1
736.2	204
736.3	27
736.4	108
736.5	161
736.6	202
736.7	1
736.8	1
736.9	1
737	89
737.1	13
737.2	159
737.3	259
737.4	168
737.5	390
737.6	125
737.7	1
737.8	1
737.9	111
738	214
738.1	1
738.2	111
738.3	168
738.4	80
738.5	4
738.6	233
738.7	54
738.8	240
738.9	221
739	183
739.1	1
739.2	209
739.3	116
739.4	37
739.5	118
739.6	145
739.7	78
739.8	1
739.9	257
740	1
740.1	73
740.2	95
740.3	19
740.4	250
740.5	126
740.6	116
740.7	54
740.8	54
740.9	260
741	373
741.1	169
741.2	116
741.3	205
741.4	100
741.5	145
741.6	164
741.7	52
741.8	198
741.9	64
742	236
742.1	172
742.2	69
742.3	1
742.4	181
742.5	205
742.6	215
742.7	157
742.8	121
742.9	217
743	114
743.1	169
743.2	174
743.3	210
743.4	86
743.5	143
743.6	105
743.7	160
743.8	55
743.9	126
744	174
744.1	311
744.2	311
744.3	1
744.4	311
744.5	165
744.6	389
744.7	270
744.8	196
744.9	96
745	220
745.1	389
745.2	148
745.3	309
745.4	367
745.5	211
745.6	319
745.7	338
745.8	184
745.9	172
746	108
746.1	370
746.2	120
746.3	314
746.4	235
746.5	367
746.6	172
746.7	252
746.8	216
746.9	15
747	290
747.1	278
747.2	134
747.3	165
747.4	216
747.5	228
747.6	1
747.7	106
747.8	149
747.9	158
748	254
748.1	223
748.2	194
748.3	245
748.4	199
748.5	199
748.6	402
748.7	77
748.8	319
748.9	421
749	450
749.1	433
749.2	387
749.3	269
749.4	312
749.5	329
749.6	358
749.7	161
749.8	291
749.9	296
750	149
750.1	334
750.2	209
750.3	341
750.4	128
750.5	337
750.6	147
750.7	188
750.8	356
750.9	293
751	178
751.1	183
751.2	257
751.3	317
751.4	204
751.5	339
751.6	224
751.7	504
751.8	209
751.9	1
752	255
752.1	388
752.2	1
752.3	142
752.4	88
752.5	277
752.6	330
752.7	388
752.8	378
752.9	236
753	332
753.1	219
753.2	299
753.3	543
753.4	157
753.5	347
753.6	306
753.7	303
753.8	52
753.9	93
754	340
754.1	231
754.2	517
754.3	308
754.4	340
754.5	454
754.6	524
754.7	212
754.8	408
754.9	350
755	415
755.1	138
755.2	217
755.3	282
755.4	145
755.5	119
755.6	391
755.7	490
755.8	374
755.9	398
756	427
756.1	571
756.2	459
756.3	464
756.4	507
756.5	534
756.6	476
756.7	471
756.8	201
756.9	532
757	684
757.1	622
757.2	464
757.3	408
757.4	440
757.5	493
757.6	681
757.7	522
757.8	564
757.9	462
758	593
758.1	745
758.2	637
758.3	642
758.4	596
758.5	620
758.6	829
758.7	728
758.8	713
758.9	598
759	549
759.1	679
759.2	652
759.3	576
759.4	718
759.5	753
759.6	746
759.7	966
759.8	800
759.9	859
760	859
760.1	1003
760.2	929
760.3	964
760.4	1116
760.5	986
760.6	837
760.7	914
760.8	949
760.9	1164
761	1298
761.1	1257
761.2	934
761.3	1361
761.4	1091
761.5	1290
761.6	1315
761.7	1162
761.8	1119
761.9	1410
762	1527
762.1	1478
762.2	1712
762.3	1591
762.4	1666
762.5	1751
762.6	1965
762.7	2001
762.8	1834
762.9	1632
763	1850
763.1	2390
763.2	2151
763.3	2133
763.4	2051
763.5	2302
763.6	2503
763.7	2340
763.8	2247
763.9	2271
764	2162
764.1	2335
764.2	2393
764.3	2279
764.4	2383
764.5	2450
764.6	2439
764.7	2654
764.8	2779
764.9	2916
765	2793
765.1	2924
765.2	2755
765.3	2638
765.4	3265
765.5	2850
765.6	3007
765.7	3015
765.8	2881
765.9	2886
766	2668
766.1	3035
766.2	2706
766.3	2853
766.4	2889
766.5	2864
766.6	2985
766.7	2606
766.8	2525
766.9	2566
767	2919
767.1	2744
767.2	2633
767.3	2477
767.4	2742
767.5	2555
767.6	2469
767.7	2434
767.8	2293
767.9	2402
768	2453
768.1	2482
768.2	2488
768.3	2472
768.4	2002
768.5	2139
768.6	2128
768.7	2218
768.8	2290
768.9	1900
769	1851
769.1	1721
769.2	1947
769.3	1874
769.4	1921
769.5	1758
769.6	2063
769.7	1752
769.8	1781
769.9	1618
770	1534
770.1	1856
770.2	1603
770.3	1680
770.4	1719
770.5	1590
770.6	1639
770.7	1442
770.8	1701
770.9	1660
771	1398
771.1	1365
771.2	1624
771.3	1465
771.4	1562
771.5	1792
771.6	1416
771.7	1608
771.8	1460
771.9	1199
772	1295
772.1	1470
772.2	1368
772.3	1358
772.4	1490
772.5	1644
772.6	1652
772.7	1644
772.8	1750
772.9	1297
773	1440
773.1	1768
773.2	1792
773.3	1657
773.4	1555
773.5	1956
773.6	1833
773.7	1598
773.8	1601
773.9	2037
774	2032
774.1	1998
774.2	2040
774.3	2283
774.4	2222
774.5	2137
774.6	2233
774.7	2185
774.8	1961
774.9	2342
775	2494
775.1	2371
775.2	2371
775.3	2323
775.4	2795
775.5	2945
775.6	2759
775.7	3339
775.8	2830
775.9	3141
776	3239
776.1	3525
776.2	3100
776.3	3519
776.4	3656
776.5	3398
776.6	3619
776.7	3818
776.8	3570
776.9	3727
777	3727
777.1	3960
777.2	3942
777.3	4009
777.4	3525
777.5	3939
777.6	4221
777.7	3893
777.8	3859
777.9	3753
778	3997
778.1	3716
778.2	4198
778.3	4064
778.4	4175
778.5	4122
778.6	4239
778.7	4082
778.8	4096
778.9	4149
779	4295
779.1	4056
779.2	4172
779.3	4163
779.4	4154
779.5	4451
779.6	4348
779.7	4552
779.8	4469
779.9	4855
780	4837
780.1	5307
780.2	5543
780.3	5801
780.4	6136
780.5	6529
780.6	6887
780.7	7146
780.8	7377
780.9	7560
781	7570
781.1	7574
781.2	7241
781.3	7045
781.4	6569
781.5	6330
781.6	5874
781.7	5578
781.8	5310
781.9	5123
782	4973
782.1	4831
782.2	5001
782.3	5013
782.4	5160
782.5	5160
782.6	5249
782.7	5685
782.8	5960
782.9	6484
783	6514
783.1	6871
783.2	7429
783.3	7289
783.4	7720
783.5	7762
783.6	7450
783.7	6981
783.8	6612
783.9	6289
784	6153
784.1	5824
784.2	5475
784.3	5394
784.4	4971
784.5	5258
784.6	4959
784.7	4974
784.8	5237
784.9	5426
785	5373
785.1	5513
785.2	5472
785.3	5197
785.4	5308
785.5	4634
785.6	4583
785.7	4467
785.8	3932
785.9	4004
786	3958
786.1	3583
786.2	4057
786.3	4097
786.4	3935
786.5	4396
786.6	4399
786.7	5324
786.8	5585
786.9	6083
787	6557
787.1	7130
787.2	7927
787.3	8422
787.4	9055
787.5	9287
787.6	9333
787.7	9404
787.8	8926
787.9	8260
788	7293
788.1	6570
788.2	5980
788.3	5268
788.4	4766
788.5	4191
788.6	3541
788.7	3325
788.8	3196
788.9	3077
789	2726
789.1	2661
789.2	2683
789.3	2408
789.4	2246
789.5	2209
789.6	1920
789.7	2014
789.8	2001
789.9	1774
790	1733
790.1	1645
790.2	1640
790.3	1828
790.4	1996
790.5	1545
790.6	1532
790.7	1356
790.8	1387
790.9	1394
791	1275
791.1	1159
791.2	1252
791.3	1338
791.4	1252
791.5	991
791.6	1432
791.7	1326
791.8	1240
791.9	1263
792	1217
792.1	1265
792.2	1316
792.3	1301
792.4	1407
792.5	1187
792.6	1134
792.7	1494
792.8	1614
792.9	1479
793	1379
793.1	1555
793.2	1681
793.3	1461
793.4	1607
793.5	1839
793.6	1952
793.7	1983
793.8	2225
793.9	1884
794	1674
794.1	1879
794.2	1814
794.3	1306
794.4	1218
794.5	1273
794.6	1276
794.7	1130
794.8	1425
794.9	1808
795	1109
795.1	1115
795.2	1177
795.3	1380
795.4	1558
795.5	1558
795.6	1157
795.7	1772
795.8	1840
795.9	1674
796	1702
796.1	1926
796.2	1902
796.3	2004
796.4	2067
796.5	2471
796.6	2562
796.7	2649
796.8	2657
796.9	2935
797	3065
797.1	3312
797.2	2924
797.3	3323
797.4	2663
797.5	2568
797.6	2622
797.7	2633
797.8	2274
797.9	2147
798	2133
798.1	1835
798.2	2157
798.3	2274
798.4	2047
798.5	1768
798.6	1633
798.7	1459
798.8	1631
798.9	1549
799	1523
799.1	1423
799.2	1375
799.3	1063
799.4	1135
799.5	1380
799.6	1063
799.7	1304
799.8	1254
799.9	1223
800	1201
800.1	960
800.2	933
800.3	946
800.4	1302
800.5	1053
800.6	1078
800.7	1143
800.8	1226
800.9	958
801	1277
801.1	1080
801.2	1335
801.3	1186
801.4	1393
801.5	1396
801.6	941
801.7	809
801.8	1040
801.9	1148
802	1123
802.1	1011
802.2	1360
802.3	1106
802.4	1103
802.5	1093
802.6	1455
802.7	1373
802.8	1542
802.9	1554
803	1444
803.1	1652
803.2	1678
803.3	1896
803.4	1836
803.5	2005
803.6	2040
803.7	1961
803.8	2192
803.9	2333
804	2155
804.1	2008
804.2	1652
804.3	1570
804.4	1573
804.5	1475
804.6	1179
804.7	1086
804.8	1164
804.9	904
805	810
805.1	956
805.2	604
805.3	949
805.4	724
805.5	687
805.6	633
805.7	675
805.8	618
805.9	1029
806	768
806.1	996
806.2	842
806.3	545
806.4	781
806.5	729
806.6	731
806.7	976
806.8	1124
806.9	645
807	575
807.1	981
807.2	934
807.3	514
807.4	560
807.5	749
807.6	677
807.7	441
807.8	558
807.9	412
808	778
808.1	448
808.2	195
808.3	636
808.4	502
808.5	477
808.6	429
808.7	575
808.8	322
808.9	373
809	347
809.1	560
809.2	820
809.3	619
809.4	262
809.5	663
809.6	439
809.7	306
809.8	303
809.9	340
810	558
810.1	289
810.2	668
810.3	548
810.4	308
810.5	429
810.6	311
810.7	480
810.8	282
810.9	246
811	335
811.1	366
811.2	7
811.3	1
811.4	172
811.5	296
811.6	641
811.7	456
811.8	224
811.9	614
812	629
812.1	196
812.2	354
812.3	234
812.4	386
812.5	181
812.6	289
812.7	502
812.8	454
812.9	449
813	551
813.1	1
813.2	100
813.3	208
813.4	273
813.5	391
813.6	179
813.7	72
813.8	234
813.9	119
814	379
814.1	338
814.2	278
814.3	122
814.4	38
814.5	439
814.6	405
814.7	398
814.8	1
814.9	333
815	268
815.1	476
815.2	693
815.3	15
815.4	215
815.5	328
815.6	343
815.7	58
815.8	1
815.9	27
816	295
816.1	84
816.2	333
816.3	304
816.4	353
816.5	372
816.6	242
816.7	319
816.8	297
816.9	153
817	433
817.1	716
817.2	513
817.3	127
817.4	117
817.5	462
817.6	153
817.7	542
817.8	266
817.9	701
818	334
818.1	302
818.2	266
818.3	518
818.4	314
818.5	586
818.6	358
818.7	245
818.8	669
818.9	406
819	269
819.1	579
819.2	247
819.3	283
819.4	1
819.5	87
819.6	274
819.7	178
819.8	650
819.9	360
820	214
820.1	625
820.2	334
820.3	341
820.4	348
820.5	416
820.6	161
820.7	452
820.8	594
820.9	660
821	204
821.1	399
821.2	453
821.3	579
821.4	484
821.5	670
821.6	474
821.7	579
821.8	557
821.9	552
822	453
822.1	724
822.2	329
822.3	395
822.4	370
822.5	204
822.6	450
822.7	183
822.8	300
822.9	626
823	778
823.1	416
823.2	431
823.3	385
823.4	397
823.5	216
823.6	463
823.7	102
823.8	492
823.9	453
824	609
824.1	226
824.2	468
824.3	465
824.4	176
824.5	472
824.6	272
824.7	104
824.8	303
824.9	138
825	133
825.1	409
825.2	555
825.3	393
825.4	260
825.5	347
825.6	102
825.7	277
825.8	477
825.9	123
826	383
826.1	509
826.2	143
826.3	138
826.4	463
826.5	369
826.6	422
826.7	212
826.8	1
826.9	12
827	55
827.1	604
827.2	33
827.3	124
827.4	19
827.5	102
827.6	1
827.7	420
827.8	556
827.9	81
828	478
828.1	184
828.2	1
828.3	200
828.4	461
828.5	205
828.6	100
828.7	93
828.8	1
828.9	1
829	408
829.1	184
829.2	263
829.3	1
829.4	442
829.5	1
829.6	1
829.7	1
829.8	273
829.9	184
830	352
